{
  "resourceType": "Bundle",
  "type": "batch",
  "entry": [
    {
      "fullUrl": "urn:uuid:4f887e20-8f3b-4c8b-9f3b-4c8b9f3b4c7c",
      "resource": {
        "resourceType": "Task",
        "id": "4f887e20-8f3b-4c8b-9f3b-4c8b9f3b4c7c",
        "text": {
          "status": "generated",
          "div": "<div xmlns=\"http://www.w3.org/1999/xhtml\"><p><b>Task</b></p><p><b>Status</b>: requested</p><p><b>Intent</b>: order</p><p><b>Description</b>: Process DICOM MWL and Image Input</p><p><b>Authored On</b>: 2024-06-16T14:00:00Z</p><p><b>Requester</b>: Dr. John Doe</p><p><b>For</b>: Patient Example</p><p><b>Input</b>: DICOM MWL (Binary/4f887e20-8f3b-4c8b-9f3b-4c8b9f3b4c8b), Image File (Binary/4f887e20-8f3b-4c8b-9f3b-4c8b9f3b4c9a), Image Study (ImagingStudy/4f887e20-8f3b-4c8b-9f3b-4c8b9f3b4c8e)</p></div>"
        },
        "status": "requested",
        "intent": "order",
        "description": "Process DICOM MWL and Image Input",
        "authoredOn": "2024-06-16T14:00:00Z",
        "requester": {
          "reference": "Practitioner/456",
          "display": "Dr. John Doe"
        },
        "for": {
          "reference": "Patient/123",
          "display": "Patient Example"
        },
        "input": [
          {
            "type": {
              "text": "DICOM MWL"
            },
            "valueReference": {
              "reference": "Binary/4f887e20-8f3b-4c8b-9f3b-4c8b9f3b4c8b"
            }
          },
          {
            "type": {
              "text": "Image File"
            },
            "valueReference": {
              "reference": "Binary/4f887e20-8f3b-4c8b-9f3b-4c8b9f3b4c9a"
            }
          },
          {
            "type": {
              "text": "Image Study"
            },
            "valueReference": {
              "reference": "ImagingStudy/4f887e20-8f3b-4c8b-9f3b-4c8b9f3b4c8e"
            }
          }
        ]
      },
      "request": {
        "method": "POST",
        "url": "http://fhir2dicom4ortho/fhir/Bundle"
      }
    },
    {
      "fullUrl": "urn:uuid:4f887e20-8f3b-4c8b-9f3b-4c8b9f3b4c8e",
      "resource": {
        "resourceType": "ImagingStudy",
        "id": "4f887e20-8f3b-4c8b-9f3b-4c8b9f3b4c8e",
        "text": {
          "status": "generated",
          "div": "<div xmlns=\"http://www.w3.org/1999/xhtml\"><p><b>Imaging Study</b></p><p><b>Status</b>: available</p><p><b>Subject</b>: Patient Example</p><p><b>Started</b>: 2024-06-16T14:00:00Z</p><p><b>Number of Series</b>: 1</p><p><b>Number of Instances</b>: 1</p><p><b>Series</b>: Sample XC Series</p><p><b>Instance</b>: Sample Orthodontic Image</p></div>"
        },
        "identifier": [
          {
            "system": "urn:dicom:uid",
            "value": "1.2.840.10008.5.1.4.1.1.77.1.4.1"
          }
        ],
        "status": "available",
        "subject": {
          "reference": "Patient/123",
          "display": "Patient Example"
        },
        "started": "2024-06-16T14:00:00Z",
        "numberOfSeries": 1,
        "numberOfInstances": 1,
        "series": [
          {
            "uid": "1.3.6.1.4.1.61741.11.2.3.250.184.10.136.8.7",
            "modality": {
              "coding": [
                {
                  "system": "http://dicom.nema.org/resources/ontology/DCM",
                  "code": "XC",
                  "display": "External-camera Photography"
                }
              ]
            },
            "started": "2024-06-16T14:00:00Z",
            "description": "Sample XC Series",
            "numberOfInstances": 1,
            "instance": [
              {
                "uid": "1.3.6.1.4.1.61741.11.2.4.146.2.192.6.158.81",
                "sopClass": {
                  "system": "https://dicom.nema.org/medical/dicom/current/output/chtml/part04/sect_B.5.html#table_B.5-1",
                  "code": "1.2.840.10008.5.1.4.1.1.77.1.4.1",
                  "display": "VL Photographic Image Storage"
                },
                "number": 1,
                "title": "Sample Orthodontic Image"
              }
            ]
          }
        ]
      },
      "request": {
        "method": "POST",
        "url": "http://fhir2dicom4ortho/fhir/Bundle"
      }
    },
    {
      "fullUrl": "urn:uuid:4f887e20-8f3b-4c8b-9f3b-4c8b9f3b4c8b",
      "resource": {
        "resourceType": "Binary",
        "id": "4f887e20-8f3b-4c8b-9f3b-4c8b9f3b4c8b",
        "contentType": "application/dicom",
        "data": ""
      },
      "request": {
        "method": "POST",
        "url": "http://fhir2dicom4ortho/fhir/Bundle"
      }
    },
    {
      "fullUrl": "urn:uuid:4f887e20-8f3b-4c8b-9f3b-4c8b9f3b4c9a",
      "resource": {
        "resourceType": "Binary",
        "id": "4f887e20-8f3b-4c8b-9f3b-4c8b9f3b4c9a",
        "contentType": "image/png",
        "data": ""
      },
      "request": {
        "method": "POST",
        "url": "http://fhir2dicom4ortho/fhir/Bundle"
      }
    }
  ]
}
